date	time	group	subject	build	blocknum	trialnum	blockcode	trialcode	pretrialpause	posttrialpause	windowcenter	trialduration	trialtimeout	blocktimeout	response	correct	latency	inwindow	stimulusnumber1	stimulusitem1	stimulusvpos1	stimulushpos1	stimulusonset1	stimulusnumber2	stimulusitem2	stimulusvpos2	stimulushpos2	stimulusonset2
111416	22:11:34	1	1	4.0.9.0	2	1	stroopeffect	redword	0	0	0	0	0	0	36	0	20	0	1	+	50pct	50pct	0	2	蓝	50pct	50pct	1649
111416	22:11:34	1	1	4.0.9.0	2	2	stroopeffect	redword	0	0	0	0	0	0	36	0	31	0	1	+	50pct	50pct	0	1	红	50pct	50pct	1649
111416	22:11:34	1	1	4.0.9.0	2	3	stroopeffect	blueword	0	0	0	0	0	0	33	0	36	0	1	+	50pct	50pct	0	2	蓝	50pct	50pct	99
111416	22:11:34	1	1	4.0.9.0	2	4	stroopeffect	blueword	0	0	0	0	0	0	33	0	26	0	1	+	50pct	50pct	0	2	蓝	50pct	50pct	99
111416	22:11:34	1	1	4.0.9.0	2	5	stroopeffect	blueword	0	0	0	0	0	0	36	1	24	0	1	+	50pct	50pct	0	2	蓝	50pct	50pct	99
111416	22:11:34	1	1	4.0.9.0	2	6	stroopeffect	redword	0	0	0	0	0	0	33	1	38	0	1	+	50pct	50pct	0	2	蓝	50pct	50pct	1649
111416	22:11:34	1	1	4.0.9.0	2	7	stroopeffect	blueword	0	0	0	0	0	0	36	1	30	0	1	+	50pct	50pct	0	2	蓝	50pct	50pct	99
111416	22:11:34	1	1	4.0.9.0	2	8	stroopeffect	blueword	0	0	0	0	0	0	33	0	36	0	1	+	50pct	50pct	0	2	蓝	50pct	50pct	99
111416	22:11:34	1	1	4.0.9.0	2	9	stroopeffect	redword	0	0	0	0	0	0	36	0	28	0	1	+	50pct	50pct	0	1	红	50pct	50pct	1649
111416	22:11:34	1	1	4.0.9.0	2	10	stroopeffect	blueword	0	0	0	0	0	0	33	0	31	0	1	+	50pct	50pct	0	2	蓝	50pct	50pct	99
111416	22:11:34	1	1	4.0.9.0	2	11	stroopeffect	blueword	0	0	0	0	0	0	36	1	45	0	1	+	50pct	50pct	0	1	红	50pct	50pct	99
111416	22:11:34	1	1	4.0.9.0	2	12	stroopeffect	redword	0	0	0	0	0	0	33	1	48	0	1	+	50pct	50pct	0	2	蓝	50pct	50pct	1649
111416	22:11:34	1	1	4.0.9.0	2	13	stroopeffect	blueword	0	0	0	0	0	0	36	1	47	0	1	+	50pct	50pct	0	2	蓝	50pct	50pct	99
111416	22:11:34	1	1	4.0.9.0	2	14	stroopeffect	redword	0	0	0	0	0	0	36	0	41	0	1	+	50pct	50pct	0	1	红	50pct	50pct	1650
111416	22:11:34	1	1	4.0.9.0	2	15	stroopeffect	redword	0	0	0	0	0	0	36	0	52	0	1	+	50pct	50pct	0	2	蓝	50pct	50pct	1649
111416	22:11:34	1	1	4.0.9.0	2	16	stroopeffect	blueword	0	0	0	0	0	0	36	1	60	0	1	+	50pct	50pct	0	2	蓝	50pct	50pct	99
111416	22:11:34	1	1	4.0.9.0	2	17	stroopeffect	redword	0	0	0	0	0	0	33	1	30	0	1	+	50pct	50pct	0	2	蓝	50pct	50pct	1649
111416	22:11:34	1	1	4.0.9.0	2	18	stroopeffect	redword	0	0	0	0	0	0	33	1	53	0	1	+	50pct	50pct	0	1	红	50pct	50pct	1649
111416	22:11:34	1	1	4.0.9.0	2	19	stroopeffect	blueword	0	0	0	0	0	0	36	1	44	0	1	+	50pct	50pct	0	1	红	50pct	50pct	99
111416	22:11:34	1	1	4.0.9.0	2	20	stroopeffect	redword	0	0	0	0	0	0	36	0	19	0	1	+	50pct	50pct	0	2	蓝	50pct	50pct	1649
111416	22:11:34	1	1	4.0.9.0	2	21	stroopeffect	blueword	0	0	0	0	0	0	36	1	39	0	1	+	50pct	50pct	0	2	蓝	50pct	50pct	99
111416	22:11:34	1	1	4.0.9.0	2	22	stroopeffect	blueword	0	0	0	0	0	0	36	1	31	0	1	+	50pct	50pct	0	2	蓝	50pct	50pct	99
111416	22:11:34	1	1	4.0.9.0	2	23	stroopeffect	redword	0	0	0	0	0	0	33	1	46	0	1	+	50pct	50pct	0	1	红	50pct	50pct	1649
111416	22:11:34	1	1	4.0.9.0	2	24	stroopeffect	blueword	0	0	0	0	0	0	33	0	42	0	1	+	50pct	50pct	0	2	蓝	50pct	50pct	99
111416	22:11:34	1	1	4.0.9.0	2	25	stroopeffect	redword	0	0	0	0	0	0	36	0	29	0	1	+	50pct	50pct	0	2	蓝	50pct	50pct	1649
111416	22:11:34	1	1	4.0.9.0	2	26	stroopeffect	redword	0	0	0	0	0	0	33	1	35	0	1	+	50pct	50pct	0	1	红	50pct	50pct	1649
111416	22:11:34	1	1	4.0.9.0	2	27	stroopeffect	blueword	0	0	0	0	0	0	33	0	43	0	1	+	50pct	50pct	0	1	红	50pct	50pct	99
111416	22:11:34	1	1	4.0.9.0	2	28	stroopeffect	redword	0	0	0	0	0	0	33	1	44	0	1	+	50pct	50pct	0	2	蓝	50pct	50pct	1649
111416	22:11:34	1	1	4.0.9.0	2	29	stroopeffect	blueword	0	0	0	0	0	0	33	0	33	0	1	+	50pct	50pct	0	2	蓝	50pct	50pct	99
111416	22:11:34	1	1	4.0.9.0	2	30	stroopeffect	redword	0	0	0	0	0	0	33	1	31	0	1	+	50pct	50pct	0	2	蓝	50pct	50pct	1649
111416	22:12:37	1	1	4.0.9.0	2	1	stroopeffect	redword	0	0	0	0	0	0	36	0	4138	0	1	+	50pct	50pct	0	2	蓝	50pct	50pct	1649
111416	22:12:37	1	1	4.0.9.0	2	2	stroopeffect	redword	0	0	0	0	0	0	33	1	759	0	1	+	50pct	50pct	0	1	红	50pct	50pct	1649
111416	22:12:37	1	1	4.0.9.0	2	3	stroopeffect	redword	0	0	0	0	0	0	33	1	259	0	1	+	50pct	50pct	0	1	红	50pct	50pct	1649
111416	22:12:37	1	1	4.0.9.0	2	4	stroopeffect	blueword	0	0	0	0	0	0	36	1	522	0	1	+	50pct	50pct	0	1	红	50pct	50pct	99
111416	22:12:37	1	1	4.0.9.0	2	5	stroopeffect	redword	0	0	0	0	0	0	33	1	585	0	1	+	50pct	50pct	0	1	红	50pct	50pct	1649
111416	22:12:37	1	1	4.0.9.0	2	6	stroopeffect	blueword	0	0	0	0	0	0	36	1	378	0	1	+	50pct	50pct	0	2	蓝	50pct	50pct	99
111416	22:12:37	1	1	4.0.9.0	2	7	stroopeffect	redword	0	0	0	0	0	0	33	1	319	0	1	+	50pct	50pct	0	2	蓝	50pct	50pct	1649
111416	22:12:37	1	1	4.0.9.0	2	8	stroopeffect	blueword	0	0	0	0	0	0	36	1	187	0	1	+	50pct	50pct	0	1	红	50pct	50pct	99
111416	22:12:37	1	1	4.0.9.0	2	9	stroopeffect	blueword	0	0	0	0	0	0	36	1	85	0	1	+	50pct	50pct	0	2	蓝	50pct	50pct	99
111416	22:12:37	1	1	4.0.9.0	2	10	stroopeffect	redword	0	0	0	0	0	0	33	1	269	0	1	+	50pct	50pct	0	1	红	50pct	50pct	1649
111416	22:12:37	1	1	4.0.9.0	2	11	stroopeffect	blueword	0	0	0	0	0	0	33	0	43	0	1	+	50pct	50pct	0	1	红	50pct	50pct	99
111416	22:12:37	1	1	4.0.9.0	2	12	stroopeffect	blueword	0	0	0	0	0	0	36	1	891	0	1	+	50pct	50pct	0	2	蓝	50pct	50pct	99
111416	22:12:37	1	1	4.0.9.0	2	13	stroopeffect	blueword	0	0	0	0	0	0	33	0	153	0	1	+	50pct	50pct	0	2	蓝	50pct	50pct	99
111416	22:12:37	1	1	4.0.9.0	2	14	stroopeffect	redword	0	0	0	0	0	0	36	0	110	0	1	+	50pct	50pct	0	2	蓝	50pct	50pct	1649
111416	22:12:37	1	1	4.0.9.0	2	15	stroopeffect	redword	0	0	0	0	0	0	33	1	117	0	1	+	50pct	50pct	0	2	蓝	50pct	50pct	1649
111416	22:12:37	1	1	4.0.9.0	2	16	stroopeffect	blueword	0	0	0	0	0	0	36	1	65	0	1	+	50pct	50pct	0	1	红	50pct	50pct	99
111416	22:12:37	1	1	4.0.9.0	2	17	stroopeffect	redword	0	0	0	0	0	0	36	0	34	0	1	+	50pct	50pct	0	2	蓝	50pct	50pct	1649
111416	22:12:37	1	1	4.0.9.0	2	18	stroopeffect	blueword	0	0	0	0	0	0	36	1	162	0	1	+	50pct	50pct	0	1	红	50pct	50pct	99
111416	22:12:37	1	1	4.0.9.0	2	19	stroopeffect	redword	0	0	0	0	0	0	36	0	71	0	1	+	50pct	50pct	0	2	蓝	50pct	50pct	1649
111416	22:12:37	1	1	4.0.9.0	2	20	stroopeffect	blueword	0	0	0	0	0	0	36	1	117	0	1	+	50pct	50pct	0	2	蓝	50pct	50pct	99
111416	22:12:37	1	1	4.0.9.0	2	21	stroopeffect	redword	0	0	0	0	0	0	36	0	140	0	1	+	50pct	50pct	0	1	红	50pct	50pct	1649
111416	22:12:37	1	1	4.0.9.0	2	22	stroopeffect	redword	0	0	0	0	0	0	36	0	209	0	1	+	50pct	50pct	0	2	蓝	50pct	50pct	1649
111416	22:12:37	1	1	4.0.9.0	2	23	stroopeffect	redword	0	0	0	0	0	0	33	1	92	0	1	+	50pct	50pct	0	2	蓝	50pct	50pct	1649
111416	22:12:37	1	1	4.0.9.0	2	24	stroopeffect	blueword	0	0	0	0	0	0	33	0	106	0	1	+	50pct	50pct	0	1	红	50pct	50pct	99
111416	22:12:37	1	1	4.0.9.0	2	25	stroopeffect	blueword	0	0	0	0	0	0	33	0	63	0	1	+	50pct	50pct	0	2	蓝	50pct	50pct	99
111416	22:12:37	1	1	4.0.9.0	2	26	stroopeffect	redword	0	0	0	0	0	0	36	0	240	0	1	+	50pct	50pct	0	2	蓝	50pct	50pct	1649
111416	22:12:37	1	1	4.0.9.0	2	27	stroopeffect	blueword	0	0	0	0	0	0	36	1	72	0	1	+	50pct	50pct	0	1	红	50pct	50pct	99
111416	22:12:37	1	1	4.0.9.0	2	28	stroopeffect	blueword	0	0	0	0	0	0	36	1	102	0	1	+	50pct	50pct	0	1	红	50pct	50pct	100
111416	22:12:37	1	1	4.0.9.0	2	29	stroopeffect	redword	0	0	0	0	0	0	33	1	205	0	1	+	50pct	50pct	0	2	蓝	50pct	50pct	1649
111416	22:12:37	1	1	4.0.9.0	2	30	stroopeffect	blueword	0	0	0	0	0	0	36	1	294	0	1	+	50pct	50pct	0	2	蓝	50pct	50pct	100
